MID	part_id	date	time	b_name	b_ver	b_plt	b_UA	current_trial	qualtrics_response_id	condition	sound_filename	gender	page_loadtime	start_time1	start_time2	end_time	RT_1	RT_2
NO_WORKER_ID	0R2O8F4P3E7N1I9Q	01.12.17	05:32:15am	Apple Safari	10.0	mac	Mozilla/5.0 (Macintosh; Intel Mac OS X 10_12) AppleWebKit/602.1.50 (KHTML, like Gecko) Version/10.0 Safari/602.1.50	0	NA	NA				NA
NO_WORKER_ID	0R2O8F4P3E7N1I9Q	01.12.17	05:32:26am	Apple Safari	10.0	mac	Mozilla/5.0 (Macintosh; Intel Mac OS X 10_12) AppleWebKit/602.1.50 (KHTML, like Gecko) Version/10.0 Safari/602.1.50	1	NA	NA				NA
NO_WORKER_ID	0R2O8F4P3E7N1I9Q	01.12.17	05:32:37am	Apple Safari	10.0	mac	Mozilla/5.0 (Macintosh; Intel Mac OS X 10_12) AppleWebKit/602.1.50 (KHTML, like Gecko) Version/10.0 Safari/602.1.50	2	NA	NA				NA
NO_WORKER_ID	0R2O8F4P3E7N1I9Q	01.12.17	05:32:47am	Apple Safari	10.0	mac	Mozilla/5.0 (Macintosh; Intel Mac OS X 10_12) AppleWebKit/602.1.50 (KHTML, like Gecko) Version/10.0 Safari/602.1.50	3	NA	NA				NA
NO_WORKER_ID	0R2O8F4P3E7N1I9Q	01.12.17	05:32:58am	Apple Safari	10.0	mac	Mozilla/5.0 (Macintosh; Intel Mac OS X 10_12) AppleWebKit/602.1.50 (KHTML, like Gecko) Version/10.0 Safari/602.1.50	4	NA	NA				NA
NO_WORKER_ID	0R2O8F4P3E7N1I9Q	01.12.17	05:33:07am	Apple Safari	10.0	mac	Mozilla/5.0 (Macintosh; Intel Mac OS X 10_12) AppleWebKit/602.1.50 (KHTML, like Gecko) Version/10.0 Safari/602.1.50	5	NA	NA				NA
NO_WORKER_ID	0R2O8F4P3E7N1I9Q	01.12.17	05:33:15am	Apple Safari	10.0	mac	Mozilla/5.0 (Macintosh; Intel Mac OS X 10_12) AppleWebKit/602.1.50 (KHTML, like Gecko) Version/10.0 Safari/602.1.50	6	NA	NA				NA
NO_WORKER_ID	0R2O8F4P3E7N1I9Q	01.12.17	05:33:26am	Apple Safari	10.0	mac	Mozilla/5.0 (Macintosh; Intel Mac OS X 10_12) AppleWebKit/602.1.50 (KHTML, like Gecko) Version/10.0 Safari/602.1.50	7	NA	NA				NA
NO_WORKER_ID	0R2O8F4P3E7N1I9Q	01.12.17	05:34:05am	Apple Safari	10.0	mac	Mozilla/5.0 (Macintosh; Intel Mac OS X 10_12) AppleWebKit/602.1.50 (KHTML, like Gecko) Version/10.0 Safari/602.1.50	8	NA	NA				NA
NO_WORKER_ID	0R2O8F4P3E7N1I9Q	01.12.17	05:34:32am	Apple Safari	10.0	mac	Mozilla/5.0 (Macintosh; Intel Mac OS X 10_12) AppleWebKit/602.1.50 (KHTML, like Gecko) Version/10.0 Safari/602.1.50	9	NA	NA				NA
NO_WORKER_ID	0R2O8F4P3E7N1I9Q	01.12.17	05:34:37am	Apple Safari	10.0	mac	Mozilla/5.0 (Macintosh; Intel Mac OS X 10_12) AppleWebKit/602.1.50 (KHTML, like Gecko) Version/10.0 Safari/602.1.50	10	NA	NA				NA
NO_WORKER_ID	0R2O8F4P3E7N1I9Q	01.12.17	05:34:44am	Apple Safari	10.0	mac	Mozilla/5.0 (Macintosh; Intel Mac OS X 10_12) AppleWebKit/602.1.50 (KHTML, like Gecko) Version/10.0 Safari/602.1.50	11	NA	NA				NA
NO_WORKER_ID	0R2O8F4P3E7N1I9Q	01.12.17	05:34:48am	Apple Safari	10.0	mac	Mozilla/5.0 (Macintosh; Intel Mac OS X 10_12) AppleWebKit/602.1.50 (KHTML, like Gecko) Version/10.0 Safari/602.1.50	12	NA	NA				NA
NO_WORKER_ID	0R2O8F4P3E7N1I9Q	01.12.17	05:34:49am	Apple Safari	10.0	mac	Mozilla/5.0 (Macintosh; Intel Mac OS X 10_12) AppleWebKit/602.1.50 (KHTML, like Gecko) Version/10.0 Safari/602.1.50	13	NA	NA				NA
NO_WORKER_ID	0R2O8F4P3E7N1I9Q	01.12.17	05:34:50am	Apple Safari	10.0	mac	Mozilla/5.0 (Macintosh; Intel Mac OS X 10_12) AppleWebKit/602.1.50 (KHTML, like Gecko) Version/10.0 Safari/602.1.50	14	NA	NA				NA
NO_WORKER_ID	0R2O8F4P3E7N1I9Q	01.12.17	05:34:50am	Apple Safari	10.0	mac	Mozilla/5.0 (Macintosh; Intel Mac OS X 10_12) AppleWebKit/602.1.50 (KHTML, like Gecko) Version/10.0 Safari/602.1.50	15	NA	NA				NA
NO_WORKER_ID	0R2O8F4P3E7N1I9Q	01.12.17	05:34:50am	Apple Safari	10.0	mac	Mozilla/5.0 (Macintosh; Intel Mac OS X 10_12) AppleWebKit/602.1.50 (KHTML, like Gecko) Version/10.0 Safari/602.1.50	16	NA	NA				NA
NO_WORKER_ID	0R2O8F4P3E7N1I9Q	01.12.17	05:34:51am	Apple Safari	10.0	mac	Mozilla/5.0 (Macintosh; Intel Mac OS X 10_12) AppleWebKit/602.1.50 (KHTML, like Gecko) Version/10.0 Safari/602.1.50	17	NA	NA				NA
NO_WORKER_ID	0R2O8F4P3E7N1I9Q	01.12.17	05:34:51am	Apple Safari	10.0	mac	Mozilla/5.0 (Macintosh; Intel Mac OS X 10_12) AppleWebKit/602.1.50 (KHTML, like Gecko) Version/10.0 Safari/602.1.50	18	NA	NA				NA
NO_WORKER_ID	0R2O8F4P3E7N1I9Q	01.12.17	05:34:51am	Apple Safari	10.0	mac	Mozilla/5.0 (Macintosh; Intel Mac OS X 10_12) AppleWebKit/602.1.50 (KHTML, like Gecko) Version/10.0 Safari/602.1.50	19	NA	NA				NA
NO_WORKER_ID	0R2O8F4P3E7N1I9Q	01.12.17	05:34:51am	Apple Safari	10.0	mac	Mozilla/5.0 (Macintosh; Intel Mac OS X 10_12) AppleWebKit/602.1.50 (KHTML, like Gecko) Version/10.0 Safari/602.1.50	20	NA	NA				NA
NO_WORKER_ID	0R2O8F4P3E7N1I9Q	01.12.17	05:34:51am	Apple Safari	10.0	mac	Mozilla/5.0 (Macintosh; Intel Mac OS X 10_12) AppleWebKit/602.1.50 (KHTML, like Gecko) Version/10.0 Safari/602.1.50	21	NA	NA				NA
NO_WORKER_ID	0R2O8F4P3E7N1I9Q	01.12.17	05:34:51am	Apple Safari	10.0	mac	Mozilla/5.0 (Macintosh; Intel Mac OS X 10_12) AppleWebKit/602.1.50 (KHTML, like Gecko) Version/10.0 Safari/602.1.50	22	NA	NA				NA
NO_WORKER_ID	0R2O8F4P3E7N1I9Q	01.12.17	05:34:52am	Apple Safari	10.0	mac	Mozilla/5.0 (Macintosh; Intel Mac OS X 10_12) AppleWebKit/602.1.50 (KHTML, like Gecko) Version/10.0 Safari/602.1.50	23	NA	NA				NA
NO_WORKER_ID	0R2O8F4P3E7N1I9Q	01.12.17	05:34:52am	Apple Safari	10.0	mac	Mozilla/5.0 (Macintosh; Intel Mac OS X 10_12) AppleWebKit/602.1.50 (KHTML, like Gecko) Version/10.0 Safari/602.1.50	24	NA	NA				NA
NO_WORKER_ID	0R2O8F4P3E7N1I9Q	01.12.17	05:34:53am	Apple Safari	10.0	mac	Mozilla/5.0 (Macintosh; Intel Mac OS X 10_12) AppleWebKit/602.1.50 (KHTML, like Gecko) Version/10.0 Safari/602.1.50	25	NA	NA				NA
NO_WORKER_ID	0R2O8F4P3E7N1I9Q	01.12.17	05:34:53am	Apple Safari	10.0	mac	Mozilla/5.0 (Macintosh; Intel Mac OS X 10_12) AppleWebKit/602.1.50 (KHTML, like Gecko) Version/10.0 Safari/602.1.50	26	NA	NA				NA
NO_WORKER_ID	0R2O8F4P3E7N1I9Q	01.12.17	05:34:54am	Apple Safari	10.0	mac	Mozilla/5.0 (Macintosh; Intel Mac OS X 10_12) AppleWebKit/602.1.50 (KHTML, like Gecko) Version/10.0 Safari/602.1.50	27	NA	NA				NA
NO_WORKER_ID	0R2O8F4P3E7N1I9Q	01.12.17	05:34:54am	Apple Safari	10.0	mac	Mozilla/5.0 (Macintosh; Intel Mac OS X 10_12) AppleWebKit/602.1.50 (KHTML, like Gecko) Version/10.0 Safari/602.1.50	28	NA	NA				NA
NO_WORKER_ID	0R2O8F4P3E7N1I9Q	01.12.17	05:34:54am	Apple Safari	10.0	mac	Mozilla/5.0 (Macintosh; Intel Mac OS X 10_12) AppleWebKit/602.1.50 (KHTML, like Gecko) Version/10.0 Safari/602.1.50	29	NA	NA				NA
NO_WORKER_ID	0R2O8F4P3E7N1I9Q	01.12.17	05:34:56am	Apple Safari	10.0	mac	Mozilla/5.0 (Macintosh; Intel Mac OS X 10_12) AppleWebKit/602.1.50 (KHTML, like Gecko) Version/10.0 Safari/602.1.50	30	NA	NA				NA
NO_WORKER_ID	0R2O8F4P3E7N1I9Q	01.12.17	05:34:57am	Apple Safari	10.0	mac	Mozilla/5.0 (Macintosh; Intel Mac OS X 10_12) AppleWebKit/602.1.50 (KHTML, like Gecko) Version/10.0 Safari/602.1.50	31	NA	NA				NA
NO_WORKER_ID	0R2O8F4P3E7N1I9Q	01.12.17	05:34:58am	Apple Safari	10.0	mac	Mozilla/5.0 (Macintosh; Intel Mac OS X 10_12) AppleWebKit/602.1.50 (KHTML, like Gecko) Version/10.0 Safari/602.1.50	32	NA	NA				NA
NO_WORKER_ID	0R2O8F4P3E7N1I9Q	01.12.17	05:34:59am	Apple Safari	10.0	mac	Mozilla/5.0 (Macintosh; Intel Mac OS X 10_12) AppleWebKit/602.1.50 (KHTML, like Gecko) Version/10.0 Safari/602.1.50	33	NA	NA				NA
NO_WORKER_ID	0R2O8F4P3E7N1I9Q	01.12.17	05:34:59am	Apple Safari	10.0	mac	Mozilla/5.0 (Macintosh; Intel Mac OS X 10_12) AppleWebKit/602.1.50 (KHTML, like Gecko) Version/10.0 Safari/602.1.50	34	NA	NA				NA
NO_WORKER_ID	0R2O8F4P3E7N1I9Q	01.12.17	05:35:00am	Apple Safari	10.0	mac	Mozilla/5.0 (Macintosh; Intel Mac OS X 10_12) AppleWebKit/602.1.50 (KHTML, like Gecko) Version/10.0 Safari/602.1.50	35	NA	NA				NA
NO_WORKER_ID	0R2O8F4P3E7N1I9Q	01.12.17	05:35:00am	Apple Safari	10.0	mac	Mozilla/5.0 (Macintosh; Intel Mac OS X 10_12) AppleWebKit/602.1.50 (KHTML, like Gecko) Version/10.0 Safari/602.1.50	36	NA	NA				NA
NO_WORKER_ID	0R2O8F4P3E7N1I9Q	01.12.17	05:35:01am	Apple Safari	10.0	mac	Mozilla/5.0 (Macintosh; Intel Mac OS X 10_12) AppleWebKit/602.1.50 (KHTML, like Gecko) Version/10.0 Safari/602.1.50	37	NA	NA				NA
NO_WORKER_ID	0R2O8F4P3E7N1I9Q	01.12.17	05:35:01am	Apple Safari	10.0	mac	Mozilla/5.0 (Macintosh; Intel Mac OS X 10_12) AppleWebKit/602.1.50 (KHTML, like Gecko) Version/10.0 Safari/602.1.50	38	NA	NA				NA
NO_WORKER_ID	0R2O8F4P3E7N1I9Q	01.12.17	05:35:01am	Apple Safari	10.0	mac	Mozilla/5.0 (Macintosh; Intel Mac OS X 10_12) AppleWebKit/602.1.50 (KHTML, like Gecko) Version/10.0 Safari/602.1.50	39	NA	NA				NA
NO_WORKER_ID	0R2O8F4P3E7N1I9Q	01.12.17	05:35:01am	Apple Safari	10.0	mac	Mozilla/5.0 (Macintosh; Intel Mac OS X 10_12) AppleWebKit/602.1.50 (KHTML, like Gecko) Version/10.0 Safari/602.1.50	40	NA	NA				NA
NO_WORKER_ID	0R2O8F4P3E7N1I9Q	01.12.17	05:35:02am	Apple Safari	10.0	mac	Mozilla/5.0 (Macintosh; Intel Mac OS X 10_12) AppleWebKit/602.1.50 (KHTML, like Gecko) Version/10.0 Safari/602.1.50	41	NA	NA				NA
NO_WORKER_ID	0R2O8F4P3E7N1I9Q	01.12.17	05:35:02am	Apple Safari	10.0	mac	Mozilla/5.0 (Macintosh; Intel Mac OS X 10_12) AppleWebKit/602.1.50 (KHTML, like Gecko) Version/10.0 Safari/602.1.50	42	NA	NA				NA
NO_WORKER_ID	0R2O8F4P3E7N1I9Q	01.12.17	05:35:02am	Apple Safari	10.0	mac	Mozilla/5.0 (Macintosh; Intel Mac OS X 10_12) AppleWebKit/602.1.50 (KHTML, like Gecko) Version/10.0 Safari/602.1.50	43	NA	NA				NA
NO_WORKER_ID	0R2O8F4P3E7N1I9Q	01.12.17	05:35:02am	Apple Safari	10.0	mac	Mozilla/5.0 (Macintosh; Intel Mac OS X 10_12) AppleWebKit/602.1.50 (KHTML, like Gecko) Version/10.0 Safari/602.1.50	44	NA	NA				NA
NO_WORKER_ID	0R2O8F4P3E7N1I9Q	01.12.17	05:35:02am	Apple Safari	10.0	mac	Mozilla/5.0 (Macintosh; Intel Mac OS X 10_12) AppleWebKit/602.1.50 (KHTML, like Gecko) Version/10.0 Safari/602.1.50	45	NA	NA				NA
NO_WORKER_ID	0R2O8F4P3E7N1I9Q	01.12.17	05:35:02am	Apple Safari	10.0	mac	Mozilla/5.0 (Macintosh; Intel Mac OS X 10_12) AppleWebKit/602.1.50 (KHTML, like Gecko) Version/10.0 Safari/602.1.50	46	NA	NA				NA
NO_WORKER_ID	0R2O8F4P3E7N1I9Q	01.12.17	05:35:03am	Apple Safari	10.0	mac	Mozilla/5.0 (Macintosh; Intel Mac OS X 10_12) AppleWebKit/602.1.50 (KHTML, like Gecko) Version/10.0 Safari/602.1.50	47	NA	NA				NA
NO_WORKER_ID	0R2O8F4P3E7N1I9Q	01.12.17	05:35:03am	Apple Safari	10.0	mac	Mozilla/5.0 (Macintosh; Intel Mac OS X 10_12) AppleWebKit/602.1.50 (KHTML, like Gecko) Version/10.0 Safari/602.1.50	48	NA	NA				NA
NO_WORKER_ID	0R2O8F4P3E7N1I9Q	01.12.17	05:35:06am	Apple Safari	10.0	mac	Mozilla/5.0 (Macintosh; Intel Mac OS X 10_12) AppleWebKit/602.1.50 (KHTML, like Gecko) Version/10.0 Safari/602.1.50	49	NA	NA				NA
NO_WORKER_ID	0R2O8F4P3E7N1I9Q	01.12.17	05:35:06am	Apple Safari	10.0	mac	Mozilla/5.0 (Macintosh; Intel Mac OS X 10_12) AppleWebKit/602.1.50 (KHTML, like Gecko) Version/10.0 Safari/602.1.50	50	NA	NA				NA
NO_WORKER_ID	0R2O8F4P3E7N1I9Q	01.12.17	05:35:07am	Apple Safari	10.0	mac	Mozilla/5.0 (Macintosh; Intel Mac OS X 10_12) AppleWebKit/602.1.50 (KHTML, like Gecko) Version/10.0 Safari/602.1.50	51	NA	NA				NA
NO_WORKER_ID	0R2O8F4P3E7N1I9Q	01.12.17	05:35:08am	Apple Safari	10.0	mac	Mozilla/5.0 (Macintosh; Intel Mac OS X 10_12) AppleWebKit/602.1.50 (KHTML, like Gecko) Version/10.0 Safari/602.1.50	52	NA	NA				NA
NO_WORKER_ID	0R2O8F4P3E7N1I9Q	01.12.17	05:35:08am	Apple Safari	10.0	mac	Mozilla/5.0 (Macintosh; Intel Mac OS X 10_12) AppleWebKit/602.1.50 (KHTML, like Gecko) Version/10.0 Safari/602.1.50	53	NA	NA				NA
NO_WORKER_ID	0R2O8F4P3E7N1I9Q	01.12.17	05:35:12am	Apple Safari	10.0	mac	Mozilla/5.0 (Macintosh; Intel Mac OS X 10_12) AppleWebKit/602.1.50 (KHTML, like Gecko) Version/10.0 Safari/602.1.50	54	NA	NA				NA
NO_WORKER_ID	0R2O8F4P3E7N1I9Q	01.12.17	05:35:14am	Apple Safari	10.0	mac	Mozilla/5.0 (Macintosh; Intel Mac OS X 10_12) AppleWebKit/602.1.50 (KHTML, like Gecko) Version/10.0 Safari/602.1.50	55	NA	NA				NA
